#Voltage(V) #Current(nA)
  0.00   40.40803000
  1.00   43.30934000
  2.00   43.48037000
  3.00   41.62172000
  4.00   45.65635000
  5.00   45.99428000
  6.00   45.83768000
  7.00   45.78411000
  8.00   47.53767000
  9.00   47.70045000
 10.00   44.98048000
 11.00   45.58835000
 12.00   47.46348000
 13.00   48.00542000
 14.00   45.80677000
 15.00   48.70396000
 16.00   49.05632000
 17.00   52.24611000
 18.00   50.23909000
 19.00   50.33182000
 20.00   50.03304000
 21.00   50.53582000
 22.00   50.97267000
 23.00   50.44103000
 24.00   50.53376000
 25.00   50.73364000
 26.00   51.31060000
 27.00   48.33923000
 28.00   52.31411000
 29.00   49.29123000
 30.00   52.39447000
 31.00   53.26404000
 32.00   54.80330000
 33.00   53.37531000
 34.00   54.01822000
 35.00   53.84719000
 36.00   53.08477000
 37.00   56.40644000
 38.00   54.72088000
 39.00   54.72087000
 40.00   55.27724000
 41.00   55.08766000
 42.00   55.41323000
 43.00   55.17008000
 44.00   56.84328000
 45.00   56.08705000
 46.00   56.59807000
 47.00   56.42910000
 48.00   57.40788000
 49.00   57.80352000
 50.00   58.83587000
 51.00   57.84679000
 52.00   61.44458000
 53.00  2008.21200000
 54.00  13990.25000000
 55.00  32252.12000000
 56.00  64529.19000000
 57.00  98999999999999988926107162687274015908859740160.00000000
 58.00  98999999999999988926107162687274015908859740160.00000000
 59.00  98999999999999988926107162687274015908859740160.00000000
 60.00  98999999999999988926107162687274015908859740160.00000000
 60.00  98999999999999988926107162687274015908859740160.00000000
