Voltage(V) Current(nA)
 60.00  49390.06000000
 59.50  98999999999999988926107162687274015908859740160.00000000
 59.00  98999999999999988926107162687274015908859740160.00000000
 58.50  98999999999999988926107162687274015908859740160.00000000
 58.00  98999999999999988926107162687274015908859740160.00000000
 57.50  98999999999999988926107162687274015908859740160.00000000
 57.00  98999999999999988926107162687274015908859740160.00000000
 56.50  98999999999999988926107162687274015908859740160.00000000
 56.00  92690.16000000
 55.50  72694.70000000
 55.00  53823.31000000
 54.50  37339.47000000
 54.00  22673.88000000
 53.50  10367.43000000
 53.00  2120.38600000
 52.50   76.51970000
 52.00   60.80366000
 51.50   58.31242000
 51.00   55.36373000
 50.50   55.26894000
 50.00   55.04228000
 49.50   54.84240000
 49.00   54.49829000
 48.50   53.71115000
 48.00   54.32932000
 47.50   53.92545000
 47.00   54.12120000
 46.50   53.55660000
 46.00   53.64727000
 45.50   53.61430000
 45.00   53.38764000
 44.50   53.15685000
 44.00   52.56135000
 43.50   52.83128000
 43.00   52.38001000
 42.50   52.37796000
 42.00   50.30295000
 41.50   49.68684000
 41.00   51.70208000
 40.50   52.12450000
 40.00   52.47068000
 39.50   51.90608000
 39.00   50.59555000
 38.50   51.57433000
 38.00   50.96440000
 37.50   50.99943000
 37.00   51.12718000
 36.50   50.96852000
 36.00   51.83190000
 35.50   50.30089000
 35.00   49.46635000
 34.50   50.13604000
 34.00   50.86961000
 33.50   49.85992000
 33.00   49.35714000
 32.50   51.72063000
 32.00   49.43339000
 31.50   47.99304000
 31.00   47.69013000
 30.50   49.10781000
 30.00   49.05630000
 29.50   48.56176000
 29.00   48.25473000
 28.50   48.13934000
 28.00   47.85292000
 27.50   48.00953000
 27.00   47.64892000
 26.50   47.61801000
 26.00   47.37075000
 25.50   47.18117000
 25.00   46.03343000
 24.50   46.94214000
 24.00   47.05754000
 23.50   46.78760000
 23.00   46.62069000
 22.50   47.29244000
 22.00   46.33015000
 21.50   46.39609000
 21.00   45.62956000
 20.50   45.78616000
 20.00   45.72228000
 19.50   45.51416000
 19.00   45.42144000
 18.50   44.95368000
 18.00   44.30666000
 17.50   44.17478000
 17.00   44.64048000
 16.50   44.31078000
 16.00   43.62873000
 15.50   44.00169000
 15.00   43.53394000
 14.50   43.82242000
 14.00   42.80862000
 13.50   43.51952000
 13.00   42.97346000
 12.50   43.10122000
 12.00   43.20837000
 11.50   42.02972000
 11.00   41.86281000
 10.50   42.21105000
 10.00   41.76390000
  9.50   41.25288000
  9.00   41.57639000
  8.50   41.43009000
  8.00   41.26731000
  7.50   40.77895000
  7.00   39.08927000
  6.50   39.90114000
  6.00   40.67180000
  5.50   39.60236000
  5.00   39.69508000
  4.50   39.95884000
  4.00   39.66005000
  3.50   39.22321000
  3.00   38.81521000
  2.50   39.19848000
  2.00   38.86261000
  1.50   38.17643000
  1.00   37.48408000
  0.50   37.67777000
  0.00   37.94359000
  0.00   39.18406000
